Folder: computing_materials_science/6-Extension_material/Data_Analysis_Extension_Material/Data

Note: 6-Extension_material/Data_Analysis_Extension_Material/Data/test_data.txt
Grain Height Width
1 3.43 3.56
2 5.32 4.54
3 4.32 1.94

Note: README.md
# computing_materials_science
Jupyter notebooks for the Computing and Comunication skills 1st Year Materials Science Course at Manchester

File: Z4RX_3PEAKS.uxd
;content of C:\Data 2015\Alistair Garner\Z4RX_3PEAKS.raw - (Diffrac Plus V4 file)
_FILEVERSION = 3
_SAMPLE = ZR4X
_+SAMPLE
_USER = Lab Manager
_GONIOMETER_CODE = 21
_STAGE_CODE = 4
; Goniometer : D8 theta/theta, stage : Open eulerian craddle
_SAMPLE_CHANGER_CODE = 0
_ATTACHMENTS_CODE = 0
_GONIOMETER_RADIUS = 330
_MONOCHROMATOR = 0
; Incident beam monochromator : None
_BETA_FILTER = N
_ANALYZER_CODE = 0
; Received beam analyzer : None
_DATEMEASURED = 30-Sep-2015 11:17:53
_RUNTIME = 61.94665
_WL_UNIT = A
_WL1 = 1.5406
_WL2 = 1.54439
_WL3 = 1.39222
_WLRATIO = 0.5
_ANODE = Cu
_V4_INF_USER = Lab Manager
_V4_INF_SAMPLEID = ZR4X
_V4_INF_CREATOR = V5Converter
_V4_INF_CREATOR_VERSION = 3.3.47.0
_V4_INF_WIZARD_PLUGIN_TYPE = TEXTURE
_V4_INF_TEXTURE_MEAS_GUID = afa0ca6f-52cc-400c-b41c-5e2d64dc5dee
_V4_INF_TEXTURE_MEAS_ID = 1443618093

; Data for range 1
_DRIVE = COUPLED
_STEPTIME = 1.5
_STEPSIZE = 5
_STEPMODE = C
_START = 0
_THETA = 15.9545
_2THETA = 31.909
_KHI = 0
_PHI = 0
_X = -0.00002
_Y = 0
_Z = -0.061992
_DETECTORSLIT = out
_TIMESTARTED = 0
_KV = 40
_MA = 40
_RANGE_WL = 1.5406
_3DPLANE = 0
_V4_PSD2THETA = 9999
_V4_PSDCHANNEL1 = 0
_V4_PSDAPERTURE = 14.325
_V4_PSDTYPE = 5
_V4_PSDFIXED = 0
_V4_COUNTERS_MASK = 1
_V4_DRIVES_MASK = 0
_V4_ENCODERS_MASK = 0
_2THETACOUNTS = 1
; 2THETA	Cnt2_D1
0.000000	351.333
5.000000	378.667
10	363.333
15	336.667
20	374
25	394.667
30	390.667
35	395.333
40	384
45	418.667
50	386
55	406.667
60	368
65	408.667
70	388
75	411.333
80	376.667
85	409.333
90	386
95	402
100	380
105	368
110	364
115	378.667
120	394.667
125	373.333
130	394
135	366.667
140	404.667
145	408
150	380
155	365.333
160	368
165	401.333
170	376.667
175	330
180	342
185	360.667
190	379.333
195	382
200	372
205	336.667
210	398.667
215	410.667
220	381.333
225	404.667
230	380
235	364
240	385.333
245	394
250	432.667
255	432
260	410
265	413.333
270	408.667
275	425.333
280	380
285	385.333
290	397.333
295	380
300	381.333
305	368
310	373.333
315	396.667
320	412.667
325	394.667
330	399.333
335	404.667
340	386.667
345	384.667
350	394
355	386

; Data for range 2
_DRIVE = COUPLED
_STEPTIME = 1.5
_STEPSIZE = 5
_STEPMODE = C
_START = 0
_THETA = 15.9545
_2THETA = 31.909
_KHI = 5
_PHI = 0
_X = -0.00002
_Y = 0
_Z = -0.061992
_DETECTORSLIT = out
_TIMESTARTED = 115.5182
_KV = 40
_MA = 40
_RANGE_WL = 1.5406
_3DPLANE = 0
_V4_PSD2THETA = 9999
_V4_PSDCHANNEL1 = 0
_V4_PSDAPERTURE = 14.325
_V4_PSDTYPE = 5
_V4_PSDFIXED = 0
_V4_COUNTERS_MASK = 1
_V4_DRIVES_MASK = 0
_V4_ENCODERS_MASK = 0
_2THETACOUNTS = 1
; 2THETA	Cnt2_D1
0.000000	406
5.000000	348.667
10	391.333
15	413.333
20	378.667
25	413.333
30	406.667
35	334.667
40	340.667
45	378.667
50	370.667
55	369.333
60	378
65	387.333
70	405.333
75	392.667
80	358.667
85	366.667
90	384
95	405.333
100	360
105	347.333
110	360
115	360.667
120	360
125	375.333
130	349.333
135	444
140	440
145	404
150	383.333
155	404.667
160	338.667
165	393.333
170	392.667
175	377.333
180	354.667
185	368
190	367.333
195	377.333
200	393.333
205	370
210	356
215	401.333
220	418.667
225	378
230	414
235	406
240	380.667
245	392
250	409.333
255	424
260	372
265	360
270	407.333
275	412
280	406
285	388
290	367.333
295	398.667
300	398
305	405.333
310	392
315	450.667
320	411.333
325	403.333
330	380
335	360
340	367.333
345	394
350	403.333
355	426.667

; Data for range 3
_DRIVE = COUPLED
_STEPTIME = 1.5
_STEPSIZE = 5
_STEPMODE = C
_START = 0
_THETA = 15.9545
_2THETA = 31.909
_KHI = 10
_PHI = 0
_X = -0.00002
_Y = 0
_Z = -0.061992
_DETECTORSLIT = out
_TIMESTARTED = 229.648
_KV = 40
_MA = 40
_RANGE_WL = 1.5406
_3DPLANE = 0
_V4_PSD2THETA = 9999
_V4_PSDCHANNEL1 = 0
_V4_PSDAPERTURE = 14.325
_V4_PSDTYPE = 5
_V4_PSDFIXED = 0
_V4_COUNTERS_MASK = 1
_V4_DRIVES_MASK = 0
_V4_ENCODERS_MASK = 0
_2THETACOUNTS = 1
; 2THETA	Cnt2_D1
0.000000	462.667
5.000000	390
10	354.667
15	396
20	376.667
25	390.667
30	348
35	390
40	357.333
45	364.667
50	364
55	410.667
60	386
65	350.667
70	364.667
75	366
80	354
85	346
90	342.667
95	385.333
100	370.667
105	372
110	350
115	384.667
120	374
125	417.333
130	418.667
135	387.333
140	354.667
145	377.333
150	406
155	396.667
160	365.333
165	364
170	366.667
175	368
180	349.333
185	389.333
190	358
195	366.667
200	367.333
205	362.667
210	364.667
215	374.667
220	406.667
225	387.333
230	418.667
235	387.333
240	398.667
245	354
250	366.667
255	362.667
260	370.667
265	336
270	384
275	374
280	391.333
285	381.333
290	388
295	376
300	388.667
305	394
310	448
315	420
320	380.667
325	427.333
330	374
335	398.667
340	399.333
345	436.667
350	418.667
355	451.333

; Data for range 4
_DRIVE = COUPLED
_STEPTIME = 1.5
_STEPSIZE = 5
_STEPMODE = C
_START = 0
_THETA = 15.9545
_2THETA = 31.909
_KHI = 15
_PHI = 0
_X = -0.00002
_Y = 0
_Z = -0.061992
_DETECTORSLIT = out
_TIMESTARTED = 343.4346
_KV = 40
_MA = 40
_RANGE_WL = 1.5406
_3DPLANE = 0
_V4_PSD2THETA = 9999
_V4_PSDCHANNEL1 = 0
_V4_PSDAPERTURE = 14.325
_V4_PSDTYPE = 5
_V4_PSDFIXED = 0
_V4_COUNTERS_MASK = 1
_V4_DRIVES_MASK = 0
_V4_ENCODERS_MASK = 0
_2THETACOUNTS = 1
; 2THETA	Cnt2_D1
0.000000	415.333
5.000000	405.333
10	390.667
15	362
20	348
25	388
30	388.667
35	392
40	402.667
45	390
50	368
55	344.667
60	377.333
65	359.333
70	400.667
75	358.667
80	344
85	358
90	369.333
95	400.667
100	354
105	376.667
110	356.667
115	352
120	354.667
125	376
130	382.667
135	347.333
140	368
145	384.667
150	412
155	378.667
160	384.667
165	376
170	390
175	378
180	393.333
185	350.667
190	407.333
195	377.333
200	364
205	350
210	427.333
215	367.333
220	364
225	348.667
230	376
235	358
240	398
245	380
250	354.667
255	382.667
260	348
265	397.333
270	366.667
275	388
280	424.667
285	388.667
290	388.667
295	372.667
300	398
305	389.333
310	386
315	376.667
320	387.333
325	369.333
330	412.667
335	420.667
340	397.333
345	408
350	429.333
355	350.667

; Data for range 5
_DRIVE = COUPLED
_STEPTIME = 1.5
_STEPSIZE = 5
_STEPMODE = C
_START = 0
_THETA = 15.9545
_2THETA = 31.909
_KHI = 20
_PHI = 0
_X = -0.00002
_Y = 0
_Z = -0.061992
_DETECTORSLIT = out
_TIMESTARTED = 457.0662
_KV = 40
_MA = 40
_RANGE_WL = 1.5406
_3DPLANE = 0
_V4_PSD2THETA = 9999
_V4_PSDCHANNEL1 = 0
_V4_PSDAPERTURE = 14.325
_V4_PSDTYPE = 5
_V4_PSDFIXED = 0
_V4_COUNTERS_MASK = 1
_V4_DRIVES_MASK = 0
_V4_ENCODERS_MASK = 0
_2THETACOUNTS = 1
; 2THETA	Cnt2_D1
0.000000	409.333
5.000000	432
10	448
15	406.667
20	432
25	424
30	402.667
35	422
40	342.667
45	407.333
50	351.333
55	412
60	384.667
65	395.333
70	382.667
75	400.667
80	330.667
85	379.333
90	362
95	372
100	369.333
105	372
110	364.667
115	396.667
120	368.667
125	383.333
130	358
135	399.333
140	391.333
145	399.333
150	380.667
155	410.667
160	416.667
165	376
170	413.333
175	411.333
180	432.667
185	378
190	364.667
195	427.333
200	354.667
205	381.333
210	408.667
215	386
220	368.667
225	330.667
230	384
235	365.333
240	408.667
245	409.333
250	424
255	399.333
260	384
265	424
270	375.333
275	387.333
280	410
285	421.333
290	390
295	402
300	379.333
305	394.667
310	402
315	396
320	380
325	421.333
330	411.333
335	400
340	409.333
345	418
350	420.667
355	404

; Data for range 6
_DRIVE = COUPLED
_STEPTIME = 1.5
_STEPSIZE = 5
_STEPMODE = C
_START = 0
_THETA = 15.9545
_2THETA = 31.909
_KHI = 25
_PHI = 0
_X = -0.00002
_Y = 0
_Z = -0.061992
_DETECTORSLIT = out
_TIMESTARTED = 570.6656
_KV = 40
_MA = 40
_RANGE_WL = 1.5406
_3DPLANE = 0
_V4_PSD2THETA = 9999
_V4_PSDCHANNEL1 = 0
_V4_PSDAPERTURE = 14.325
_V4_PSDTYPE = 5
_V4_PSDFIXED = 0
_V4_COUNTERS_MASK = 1
_V4_DRIVES_MASK = 0
_V4_ENCODERS_MASK = 0
_2THETACOUNTS = 1
; 2THETA	Cnt2_D1
0.000000	434
5.000000	437.333
10	424
15	376.667
20	392.667
25	384.667
30	437.333
35	378
40	397.333
45	354
50	376.667
55	361.333
60	346
65	406
70	390.667
75	360
80	391.333
85	358
90	368
95	350.667
100	375.333
105	381.333
110	392.667
115	392
120	368
125	367.333
130	390.667
135	371.333
140	382
145	384.667
150	387.333
155	404
160	450.667
165	431.333
170	416.667
175	442
180	446
185	456.667
190	433.333
195	410.667
200	409.333
205	414.667
210	402.667
215	382.667
220	399.333
225	401.333
230	365.333
235	401.333
240	436
245	405.333
250	448
255	444.667
260	436.667
265	424.667
270	456
275	444
280	408
285	473.333
290	393.333
295	436
300	426.667
305	378.667
310	434.667
315	372.667
320	400
325	424.667
330	395.333
335	408
340	406
345	414
350	435.333
355	453.333

; Data for range 7
_DRIVE = COUPLED
_STEPTIME = 1.5
_STEPSIZE = 5
_STEPMODE = C
_START = 0
_THETA = 15.9545
_2THETA = 31.909
_KHI = 30
_PHI = 0
_X = -0.00002
_Y = 0
_Z = -0.061992
_DETECTORSLIT = out
_TIMESTARTED = 684.2806
_KV = 40
_MA = 40
_RANGE_WL = 1.5406
_3DPLANE = 0
_V4_PSD2THETA = 9999
_V4_PSDCHANNEL1 = 0
_V4_PSDAPERTURE = 14.325
_V4_PSDTYPE = 5
_V4_PSDFIXED = 0
_V4_COUNTERS_MASK = 1
_V4_DRIVES_MASK = 0
_V4_ENCODERS_MASK = 0
_2THETACOUNTS = 1
; 2THETA	Cnt2_D1
0.000000	495.333
5.000000	480
10	512.667
15	420
20	450
25	410.667
30	376
35	430
40	420
45	381.333
50	392.667
55	378.667
60	388.667
65	362
70	385.333
75	358
80	370
85	360
90	358
95	360
100	373.333
105	369.333
110	355.333
115	332
120	383.333
125	424.667
130	407.333
135	416
140	423.333
145	414.667
150	415.333
155	439.333
160	418.667
165	480
170	458
175	421.333
180	485.333
185	444.667
190	444
195	473.333
200	408.667
205	418
210	394
215	381.333
220	394
225	454
230	399.333
235	400
240	420.667
245	413.333
250	442.667
255	490
260	493.333
265	503.333
270	544.667
275	488
280	476.667
285	442
290	477.333
295	475.333
300	404.667
305	404.667
310	405.333
315	408
320	398
325	445.333
330	395.333
335	463.333
340	478.667
345	481.333
350	533.333
355	472.667

; Data for range 8
_DRIVE = COUPLED
_STEPTIME = 1.5
_STEPSIZE = 5
_STEPMODE = C
_START = 0
_THETA = 15.9545
_2THETA = 31.909
_KHI = 35
_PHI = 0
_X = -0.00002
_Y = 0
_Z = -0.061992
_DETECTORSLIT = out
_TIMESTARTED = 797.8488
_KV = 40
_MA = 40
_RANGE_WL = 1.5406
_3DPLANE = 0
_V4_PSD2THETA = 9999
_V4_PSDCHANNEL1 = 0
_V4_PSDAPERTURE = 14.325
_V4_PSDTYPE = 5
_V4_PSDFIXED = 0
_V4_COUNTERS_MASK = 1
_V4_DRIVES_MASK = 0
_V4_ENCODERS_MASK = 0
_2THETACOUNTS = 1
; 2THETA	Cnt2_D1
0.000000	501.333
5.000000	542.667
10	524
15	511.333
20	450
25	463.333
30	418.667
35	468.667
40	432.667
45	430
50	410.667
55	386.667
60	392
65	380
70	389.333
75	378.667
80	399.333
85	356
90	382.667
95	392.667
100	338
105	388
110	396
115	390
120	414
125	402
130	401.333
135	411.333
140	462
145	424.667
150	429.333
155	473.333
160	432.667
165	513.333
170	486
175	537.333
180	518
185	560.667
190	498
195	460.667
200	442.667
205	447.333
210	438.667
215	447.333
220	412.667
225	444
230	441.333
235	458
240	439.333
245	446.667
250	490.667
255	543.333
260	598
265	584.667
270	602.667
275	574
280	540
285	552.667
290	492
295	496.667
300	482.667
305	440
310	462
315	398.667
320	436.667
325	455.333
330	455.333
335	470
340	452.667
345	468
350	458.667
355	526

; Data for range 9
_DRIVE = COUPLED
_STEPTIME = 1.5
_STEPSIZE = 5
_STEPMODE = C
_START = 0
_THETA = 15.9545
_2THETA = 31.909
_KHI = 40
_PHI = 0
_X = -0.00002
_Y = 0
_Z = -0.061992
_DETECTORSLIT = out
_TIMESTARTED = 911.495
_KV = 40
_MA = 40
_RANGE_WL = 1.5406
_3DPLANE = 0
_V4_PSD2THETA = 9999
_V4_PSDCHANNEL1 = 0
_V4_PSDAPERTURE = 14.325
_V4_PSDTYPE = 5
_V4_PSDFIXED = 0
_V4_COUNTERS_MASK = 1
_V4_DRIVES_MASK = 0
_V4_ENCODERS_MASK = 0
_2THETACOUNTS = 1
; 2THETA	Cnt2_D1
0.000000	593.333
5.000000	619.333
10	602.667
15	564.667
20	517.333
25	480
30	502.667
35	488
40	490
45	430.667
50	460.667
55	373.333
60	418.667
65	401.333
70	413.333
75	412
80	388
85	380.667
90	413.333
95	385.333
100	376
105	390.667
110	416
115	426.667
120	453.333
125	418
130	483.333
135	449.333
140	456.667
145	508.667
150	509.333
155	569.333
160	576
165	536.667
170	564
175	583.333
180	570.667
185	604
190	609.333
195	492.667
200	528
205	488.667
210	455.333
215	484.667
220	458
225	505.333
230	448
235	458
240	483.333
245	507.333
250	520.667
255	568
260	586
265	616
270	619.333
275	606
280	614.667
285	568
290	555.333
295	523.333
300	485.333
305	451.333
310	504
315	466
320	494
325	512.667
330	472.667
335	577.333
340	544
345	494
350	550
355	626.667

; Data for range 10
_DRIVE = COUPLED
_STEPTIME = 1.5
_STEPSIZE = 5
_STEPMODE = C
_START = 0
_THETA = 15.9545
_2THETA = 31.909
_KHI = 45
_PHI = 0
_X = -0.00002
_Y = 0
_Z = -0.061992
_DETECTORSLIT = out
_TIMESTARTED = 1025.141
_KV = 40
_MA = 40
_RANGE_WL = 1.5406
_3DPLANE = 0
_V4_PSD2THETA = 9999
_V4_PSDCHANNEL1 = 0
_V4_PSDAPERTURE = 14.325
_V4_PSDTYPE = 5
_V4_PSDFIXED = 0
_V4_COUNTERS_MASK = 1
_V4_DRIVES_MASK = 0
_V4_ENCODERS_MASK = 0
_2THETACOUNTS = 1
; 2THETA	Cnt2_D1
0.000000	662
5.000000	668.667
10	662
15	620
20	639.333
25	576
30	566
35	539.333
40	501.333
45	512.667
50	498
55	514
60	462.667
65	437.333
70	468.667
75	494
80	446
85	476
90	462
95	440
100	431.333
105	477.333
110	472.667
115	461.333
120	506
125	482
130	518
135	530.667
140	549.333
145	534
150	582
155	536
160	582
165	574
170	648
175	663.333
180	688
185	675.333
190	644
195	605.333
200	576.667
205	595.333
210	552.667
215	532.667
220	522.667
225	586
230	568.667
235	592.667
240	542.667
245	558.667
250	624
255	552
260	635.333
265	589.333
270	578.667
275	635.333
280	556
285	584
290	547.333
295	571.333
300	554.667
305	580.667
310	522
315	576.667
320	517.333
325	562.667
330	546
335	573.333
340	602
345	672
350	652.667
355	673.333

; Data for range 11
_DRIVE = COUPLED
_STEPTIME = 1.5
_STEPSIZE = 5
_STEPMODE = C
_START = 0
_THETA = 15.9545
_2THETA = 31.909
_KHI = 50
_PHI = 0
_X = -0.00002
_Y = 0
_Z = -0.061992
_DETECTORSLIT = out
_TIMESTARTED = 1138.772
_KV = 40
_MA = 40
_RANGE_WL = 1.5406
_3DPLANE = 0
_V4_PSD2THETA = 9999
_V4_PSDCHANNEL1 = 0
_V4_PSDAPERTURE = 14.325
_V4_PSDTYPE = 5
_V4_PSDFIXED = 0
_V4_COUNTERS_MASK = 1
_V4_DRIVES_MASK = 0
_V4_ENCODERS_MASK = 0
_2THETACOUNTS = 1
; 2THETA	Cnt2_D1
0.000000	762
5.000000	754.667
10	784.667
15	749.333
20	727.333
25	678.667
30	682
35	664.667
40	633.333
45	580
50	606
55	570
60	578.667
65	558.667
70	600.667
75	508.667
80	495.333
85	548.667
90	552
95	514
100	534
105	556
110	585.333
115	562.667
120	547.333
125	580.667
130	588
135	636.667
140	657.333
145	605.333
150	650.667
155	686
160	705.333
165	754.667
170	733.333
175	831.333
180	809.333
185	788
190	772.667
195	700.667
200	711.333
205	706.667
210	642.667
215	600.667
220	705.333
225	649.333
230	636.667
235	699.333
240	678.667
245	645.333
250	608
255	684.667
260	685.333
265	653.333
270	686.667
275	716
280	608
285	647.333
290	656.667
295	705.333
300	700.667
305	686
310	568.667
315	653.333
320	634.667
325	661.333
330	668
335	655.333
340	697.333
345	736
350	808.667
355	818

; Data for range 12
_DRIVE = COUPLED
_STEPTIME = 1.5
_STEPSIZE = 5
_STEPMODE = C
_START = 0
_THETA = 15.9545
_2THETA = 31.909
_KHI = 55
_PHI = 0
_X = -0.00002
_Y = 0
_Z = -0.061992
_DETECTORSLIT = out
_TIMESTARTED = 1252.387
_KV = 40
_MA = 40
_RANGE_WL = 1.5406
_3DPLANE = 0
_V4_PSD2THETA = 9999
_V4_PSDCHANNEL1 = 0
_V4_PSDAPERTURE = 14.325
_V4_PSDTYPE = 5
_V4_PSDFIXED = 0
_V4_COUNTERS_MASK = 1
_V4_DRIVES_MASK = 0
_V4_ENCODERS_MASK = 0
_2THETACOUNTS = 1
; 2THETA	Cnt2_D1
0.000000	937.333
5.000000	879.333
10	890
15	898.667
20	845.333
25	853.333
30	763.333
35	781.333
40	752
45	748
50	752
55	676.667
60	720
65	743.333
70	746
75	706
80	783.333
85	726.667
90	741.333
95	730
100	700.667
105	724.667
110	748
115	740.667
120	722
125	816.667
130	769.333
135	760
140	821.333
145	771.333
150	800
155	810.667
160	839.333
165	880
170	944
175	1021.33
180	918.667
185	983.333
190	945.333
195	942.667
200	898
205	812.667
210	805.333
215	770
220	825.333
225	802.667
230	772
235	877.333
240	832
245	799.333
250	867.333
255	844
260	750
265	753.333
270	816
275	794.667
280	794
285	788
290	815.333
295	802
300	834.667
305	896
310	809.333
315	789.333
320	823.333
325	752
330	784.667
335	830
340	834
345	857.333
350	894
355	928

; Data for range 13
_DRIVE = COUPLED
_STEPTIME = 1.5
_STEPSIZE = 5
_STEPMODE = C
_START = 0
_THETA = 15.9545
_2THETA = 31.909
_KHI = 60
_PHI = 0
_X = -0.00002
_Y = 0
_Z = -0.061992
_DETECTORSLIT = out
_TIMESTARTED = 1366.158
_KV = 40
_MA = 40
_RANGE_WL = 1.5406
_3DPLANE = 0
_V4_PSD2THETA = 9999
_V4_PSDCHANNEL1 = 0
_V4_PSDAPERTURE = 14.325
_V4_PSDTYPE = 5
_V4_PSDFIXED = 0
_V4_COUNTERS_MASK = 1
_V4_DRIVES_MASK = 0
_V4_ENCODERS_MASK = 0
_2THETACOUNTS = 1
; 2THETA	Cnt2_D1
0.000000	1091.33
5.000000	984
10	1011.33
15	948.667
20	1016
25	974
30	1001.33
35	1017.33
40	1034
45	949.333
50	987.333
55	1062
60	999.333
65	982
70	1019.33
75	994.667
80	1052
85	940
90	986
95	953.333
100	992.667
105	1011.33
110	1070.67
115	994
120	975.333
125	981.333
130	1031.33
135	966
140	1044
145	929.333
150	958
155	994
160	1007.33
165	1080
170	1049.33
175	1082
180	1150.67
185	1146
190	1122
195	1097.33
200	996.667
205	1050
210	1011.33
215	1050.67
220	1116.67
225	1066.67
230	980
235	1130
240	1068.67
245	1036.67
250	1010
255	1038
260	997.333
265	957.333
270	1019.33
275	997.333
280	997.333
285	1029.33
290	1006
295	1064.67
300	1070.67
305	1050.67
310	1015.33
315	982
320	1010
325	1048
330	1022
335	1045.33
340	986
345	1016
350	1076
355	1158

; Data for range 14
_DRIVE = COUPLED
_STEPTIME = 1.5
_STEPSIZE = 5
_STEPMODE = C
_START = 0
_THETA = 15.9545
_2THETA = 31.909
_KHI = 65
_PHI = 0
_X = -0.00002
_Y = 0
_Z = -0.061992
_DETECTORSLIT = out
_TIMESTARTED = 1479.742
_KV = 40
_MA = 40
_RANGE_WL = 1.5406
_3DPLANE = 0
_V4_PSD2THETA = 9999
_V4_PSDCHANNEL1 = 0
_V4_PSDAPERTURE = 14.325
_V4_PSDTYPE = 5
_V4_PSDFIXED = 0
_V4_COUNTERS_MASK = 1
_V4_DRIVES_MASK = 0
_V4_ENCODERS_MASK = 0
_2THETACOUNTS = 1
; 2THETA	Cnt2_D1
0.000000	1265.33
5.000000	1306.67
10	1220.67
15	1222.67
20	1147.33
25	1110.67
30	1171.33
35	1128
40	1208.67
45	1150
50	1255.33
55	1267.33
[...]
335	1006.67
340	989.333
345	936.667
350	1005.33
355	946

; Data for range 48
_DRIVE = COUPLED
_STEPTIME = 1.5
_STEPSIZE = 5
_STEPMODE = C
_START = 0
_THETA = 23.999
_2THETA = 47.998
_KHI = 55
_PHI = 0
_X = -0.00002
_Y = 0
_Z = -0.061992
_DETECTORSLIT = out
_TIMESTARTED = 5398.845
_KV = 40
_MA = 40
_RANGE_WL = 1.5406
_3DPLANE = 0
_V4_PSD2THETA = 9999
_V4_PSDCHANNEL1 = 0
_V4_PSDAPERTURE = 14.325
_V4_PSDTYPE = 5
_V4_PSDFIXED = 0
_V4_COUNTERS_MASK = 1
_V4_DRIVES_MASK = 0
_V4_ENCODERS_MASK = 0
_2THETACOUNTS = 1
; 2THETA	Cnt2_D1
0.000000	939.333
5.000000	913.333
10	866.667
15	917.333
20	874.667
25	954
30	960
35	924
40	916.667
45	956
50	922.667
55	905.333
60	902
65	876.667
70	846
75	840.667
80	863.333
85	772.667
90	742
95	765.333
100	752.667
105	778
110	797.333
115	830.667
120	876.667
125	906
130	835.333
135	858.667
140	810
145	793.333
150	779.333
155	777.333
160	726.667
165	806
170	775.333
175	804.667
180	811.333
185	768.667
190	816
195	866.667
200	788
205	786
210	820
215	811.333
220	847.333
225	892
230	852.667
235	886.667
240	854
245	812
250	790
255	856.667
260	770
265	820
270	794.667
275	791.333
280	841.333
285	896
290	914.667
295	896.667
300	907.333
305	959.333
310	961.333
315	956
320	902.667
325	1032.67
330	913.333
335	834.667
340	946
345	856
350	952.667
355	853.333

; Data for range 49
_DRIVE = COUPLED
_STEPTIME = 1.5
_STEPSIZE = 5
_STEPMODE = C
_START = 0
_THETA = 23.999
_2THETA = 47.998
_KHI = 60
_PHI = 0
_X = -0.00002
_Y = 0
_Z = -0.061992
_DETECTORSLIT = out
_TIMESTARTED = 5512.491
_KV = 40
_MA = 40
_RANGE_WL = 1.5406
_3DPLANE = 0
_V4_PSD2THETA = 9999
_V4_PSDCHANNEL1 = 0
_V4_PSDAPERTURE = 14.325
_V4_PSDTYPE = 5
_V4_PSDFIXED = 0
_V4_COUNTERS_MASK = 1
_V4_DRIVES_MASK = 0
_V4_ENCODERS_MASK = 0
_2THETACOUNTS = 1
; 2THETA	Cnt2_D1
0.000000	795.333
5.000000	805.333
10	797.333
15	775.333
20	770
25	778.667
30	848.667
35	833.333
40	784
45	812.667
50	824.667
55	804
60	781.333
65	689.333
70	750.667
75	645.333
80	651.333
85	636
90	604
95	637.333
100	600
105	668.667
110	634.667
115	681.333
120	715.333
125	727.333
130	756.667
135	725.333
140	672.667
145	698
150	778
155	702.667
160	686.667
165	671.333
170	672.667
175	730
180	746.667
185	693.333
190	686
195	657.333
200	736
205	710
210	747.333
215	734
220	762
225	830
230	751.333
235	775.333
240	811.333
245	716.667
250	768
255	672.667
260	722
265	682
270	735.333
275	750.667
280	715.333
285	768
290	783.333
295	794.667
300	893.333
305	895.333
310	902.667
315	894
320	892
325	870
330	840.667
335	757.333
340	806
345	764.667
350	812
355	810.667

; Data for range 50
_DRIVE = COUPLED
_STEPTIME = 1.5
_STEPSIZE = 5
_STEPMODE = C
_START = 0
_THETA = 23.999
_2THETA = 47.998
_KHI = 65
_PHI = 0
_X = -0.00002
_Y = 0
_Z = -0.061992
_DETECTORSLIT = out
_TIMESTARTED = 5626.106
_KV = 40
_MA = 40
_RANGE_WL = 1.5406
_3DPLANE = 0
_V4_PSD2THETA = 9999
_V4_PSDCHANNEL1 = 0
_V4_PSDAPERTURE = 14.325
_V4_PSDTYPE = 5
_V4_PSDFIXED = 0
_V4_COUNTERS_MASK = 1
_V4_DRIVES_MASK = 0
_V4_ENCODERS_MASK = 0
_2THETACOUNTS = 1
; 2THETA	Cnt2_D1
0.000000	680.667
5.000000	698
10	646
15	709.333
20	722.667
25	747.333
30	745.333
35	771.333
40	730
45	752.667
50	680
55	658.667
60	574.667
65	532.667
70	518.667
75	497.333
80	504
85	513.333
90	500.667
95	542.667
100	472.667
105	449.333
110	487.333
115	523.333
120	573.333
125	584
130	610
135	653.333
140	590.667
145	606
150	608
155	572.667
160	630.667
165	602.667
170	578.667
175	582
180	582
185	609.333
190	632
195	620.667
200	598
205	658
210	615.333
215	665.333
220	646.667
225	670
230	682.667
235	694.667
240	638.667
245	640.667
250	553.333
255	556.667
260	536.667
265	526.667
270	549.333
275	558
280	583.333
285	552.667
290	659.333
295	662.667
300	679.333
305	680.667
310	690.667
315	738.667
320	741.333
325	702
330	762
335	686
340	704.667
345	738
350	655.333
355	715.333

; Data for range 51
_DRIVE = COUPLED
_STEPTIME = 1.5
_STEPSIZE = 5
_STEPMODE = C
_START = 0
_THETA = 23.999
_2THETA = 47.998
_KHI = 70
_PHI = 0
_X = -0.00002
_Y = 0
_Z = -0.061992
_DETECTORSLIT = out
_TIMESTARTED = 5739.737
_KV = 40
_MA = 40
_RANGE_WL = 1.5406
_3DPLANE = 0
_V4_PSD2THETA = 9999
_V4_PSDCHANNEL1 = 0
_V4_PSDAPERTURE = 14.325
_V4_PSDTYPE = 5
_V4_PSDFIXED = 0
_V4_COUNTERS_MASK = 1
_V4_DRIVES_MASK = 0
_V4_ENCODERS_MASK = 0
_2THETACOUNTS = 1
; 2THETA	Cnt2_D1
0.000000	624.667
5.000000	624
10	630.667
15	627.333
20	641.333
25	627.333
30	620.667
35	620.667
40	624.667
45	607.333
50	558.667
55	466
60	466
65	406
70	445.333
75	432.667
80	364.667
85	428.667
90	330
95	356
100	360.667
105	396.667
110	410
115	393.333
120	490.667
125	506
130	552.667
135	515.333
140	578
145	564
150	538
155	538
160	516
165	524
170	534.667
175	548.667
180	606
185	582
190	556.667
195	562.667
200	546
205	554
210	564
215	615.333
220	546
225	568
230	542
235	504.667
240	489.333
245	459.333
250	444
255	423.333
260	414.667
265	403.333
270	395.333
275	440
280	446.667
285	437.333
290	465.333
295	516.667
300	550
305	548.667
310	598.667
315	600.667
320	678
325	640.667
330	639.333
335	605.333
340	634
345	585.333
350	620.667
355	578.667

; Data for range 52
_DRIVE = COUPLED
_STEPTIME = 1.5
_STEPSIZE = 5
_STEPMODE = C
_START = 0
_THETA = 23.999
_2THETA = 47.998
_KHI = 75
_PHI = 0
_X = -0.00002
_Y = 0
_Z = -0.061992
_DETECTORSLIT = out
_TIMESTARTED = 5853.477
_KV = 40
_MA = 40
_RANGE_WL = 1.5406
_3DPLANE = 0
_V4_PSD2THETA = 9999
_V4_PSDCHANNEL1 = 0
_V4_PSDAPERTURE = 14.325
_V4_PSDTYPE = 5
_V4_PSDFIXED = 0
_V4_COUNTERS_MASK = 1
_V4_DRIVES_MASK = 0
_V4_ENCODERS_MASK = 0
_2THETACOUNTS = 1
; 2THETA	Cnt2_D1
0.000000	553.333
5.000000	554.667
10	548.667
15	532
20	505.333
25	516.667
30	498.667
35	518
40	504
45	458
50	436
55	438
60	384.667
65	372
70	408
75	363.333
80	360
85	328
90	300.667
95	326
100	322
105	322
110	354
115	360.667
120	367.333
125	412
130	446
135	438
140	467.333
145	484
150	438.667
155	436.667
160	473.333
165	452
170	451.333
175	458
180	459.333
185	505.333
190	490.667
195	483.333
200	512.667
205	468
210	506.667
215	476
220	506.667
225	456.667
230	402.667
235	372
240	404
245	391.333
250	367.333
255	338.667
260	323.333
265	316
270	323.333
275	300.667
280	301.333
285	361.333
290	356
295	348
300	395.333
305	412
310	497.333
315	498.667
320	542.667
325	580
330	546
335	553.333
340	569.333
345	518.667
350	586.667
355	602

; Data for range 53
_DRIVE = COUPLED
_STEPTIME = 1.5
_STEPSIZE = 5
_STEPMODE = C
_START = 0
_THETA = 23.999
_2THETA = 47.998
_KHI = 80
_PHI = 0
_X = -0.00002
_Y = 0
_Z = -0.061992
_DETECTORSLIT = out
_TIMESTARTED = 5967.045
_KV = 40
_MA = 40
_RANGE_WL = 1.5406
_3DPLANE = 0
_V4_PSD2THETA = 9999
_V4_PSDCHANNEL1 = 0
_V4_PSDAPERTURE = 14.325
_V4_PSDTYPE = 5
_V4_PSDFIXED = 0
_V4_COUNTERS_MASK = 1
_V4_DRIVES_MASK = 0
_V4_ENCODERS_MASK = 0
_2THETACOUNTS = 1
; 2THETA	Cnt2_D1
0.000000	469.333
5.000000	470
10	430
15	416.667
20	386.667
25	400.667
30	378
35	384
40	365.333
45	345.333
50	308
55	305.333
60	331.333
65	332.667
70	350
75	330
80	354
85	329.333
90	306.667
95	294.667
100	266
105	255.333
110	282.667
115	287.333
120	336.667
125	342
130	375.333
135	394.667
140	400.667
145	387.333
150	378
155	381.333
160	342
165	374.667
170	402
175	388
180	404.667
185	473.333
190	450.667
195	407.333
200	420.667
205	356.667
210	395.333
215	341.333
220	348
225	292.667
230	311.333
235	278
240	306
245	319.333
250	309.333
255	270.667
260	315.333
265	306.667
270	311.333
275	295.333
280	269.333
285	258.667
290	236.667
295	285.333
300	276
305	332
310	350.667
315	380
320	423.333
325	414
330	414.667
335	413.333
340	429.333
345	432
350	456.667
355	502

; Data for range 54
_DRIVE = COUPLED
_STEPTIME = 1.5
_STEPSIZE = 5
_STEPMODE = C
_START = 0
_THETA = 23.999
_2THETA = 47.998
_KHI = 85
_PHI = 0
_X = -0.00002
_Y = 0
_Z = -0.061992
_DETECTORSLIT = out
_TIMESTARTED = 6080.597
_KV = 40
_MA = 40
_RANGE_WL = 1.5406
_3DPLANE = 0
_V4_PSD2THETA = 9999
_V4_PSDCHANNEL1 = 0
_V4_PSDAPERTURE = 14.325
_V4_PSDTYPE = 5
_V4_PSDFIXED = 0
_V4_COUNTERS_MASK = 1
_V4_DRIVES_MASK = 0
_V4_ENCODERS_MASK = 0
_2THETACOUNTS = 1
; 2THETA	Cnt2_D1
0.000000	327.333
5.000000	360.667
10	363.333
15	259.333
20	188.667
25	165.333
30	114.667
35	106.667
40	59.3333
45	58
50	30
55	28.6667
60	21.3333
65	26.6667
70	28
75	28
80	40
85	52
90	36.6667
95	40.6667
100	52
105	47.3333
110	66.6667
115	79.3333
120	108
125	108.667
130	121.333
135	138
140	127.333
145	144.667
150	178
155	148.667
160	182
165	201.333
170	250
175	252.667
180	312.667
185	370
190	357.333
195	215.333
200	215.333
205	151.333
210	144.667
215	97.3333
220	74.6667
225	55.3333
230	47.3333
235	30
240	24
245	21.3333
250	22.6667
255	17.3333
260	24
265	12.6667
270	32
275	36.6667
280	29.3333
285	58
290	72.6667
295	66.6667
300	87.3333
305	92
310	102.667
315	128.667
320	135.333
325	135.333
330	140.667
335	165.333
340	164.667
345	188.667
350	236
355	308.667